stimulusWord,theCondition,corrResp,stimulusWord_2,theCondition_2,corrResp_2,Conditions_1.thisRepN,Conditions_1.thisTrialN,Conditions_1.thisN,Conditions_1.thisIndex,Conditions_2.thisRepN,Conditions_2.thisTrialN,Conditions_2.thisN,Conditions_2.thisIndex,Instruction_image.started,Instruction_image.stopped,Begin_task.keys,Begin_task.rt,Begin_task.started,Begin_task.stopped,Warning_signal_1.started,Warning_signal_1.stopped,The_word_1.started,The_word_1.stopped,Response_1.keys,Response_1.rt,Response_1.started,Response_1.stopped,Warning_signal_2.started,Warning_signal_2.stopped,The_word_2.started,The_word_2.stopped,Response_2.keys,Response_2.rt,Response_2.started,Response_2.stopped,The_end_text.started,The_end_text.stopped,End_task.keys,End_task.rt,End_task.started,End_task.stopped,participant,session,date,expName,psychopyVersion,frameRate,
,,,,,,,,,,,,,,10.863948940008413,None,space,21.135621266963426,10.863948940008413,None,,,,,,,,,,,,,,,,,,,,,,,9,001,2021_Dec_01_1522,Project_RL,2021.2.3,None,
BOAT,word,left,,,,0,0,0,8,,,,,,,,,,,32.03806455602171,33.07553187699523,33.049353367008734,None,right,1.0029301610193215,33.049353367008734,None,,,,,,,,,,,,,,,9,001,2021_Dec_01_1522,Project_RL,2021.2.3,None,
FRIEND,word,left,,,,0,1,1,7,,,,,,,,,,,34.08307000203058,35.09632923902245,35.071831309003755,None,right,0.7744229310192168,35.071831309003755,None,,,,,,,,,,,,,,,9,001,2021_Dec_01_1522,Project_RL,2021.2.3,None,
NURSE,word,left,,,,0,2,2,3,,,,,,,,,,,35.86622885899851,36.87983896001242,36.867127042030916,None,right,0.48894482001196593,36.867127042030916,None,,,,,,,,,,,,,,,9,001,2021_Dec_01_1522,Project_RL,2021.2.3,None,
KAFF,nonword,right,,,,0,3,3,12,,,,,,,,,,,37.38102035300108,38.39509942103177,38.37104067800101,None,left,0.6049873140291311,38.37104067800101,None,,,,,,,,,,,,,,,9,001,2021_Dec_01_1522,Project_RL,2021.2.3,None,
GLIR,nonword,right,,,,0,4,4,18,,,,,,,,,,,39.010547335026786,40.01988350303145,40.00889294903027,None,right,0.6101999880047515,40.00889294903027,None,,,,,,,,,,,,,,,9,001,2021_Dec_01_1522,Project_RL,2021.2.3,None,
NIGHT,word,left,,,,0,5,5,4,,,,,,,,,,,40.639851922984235,41.65177119401051,41.64254519803217,None,right,0.6824410450062715,41.64254519803217,None,,,,,,,,,,,,,,,9,001,2021_Dec_01_1522,Project_RL,2021.2.3,None,
BONE,word,left,,,,0,6,6,2,,,,,,,,,,,42.344833001028746,43.35191120102536,43.34213828900829,None,right,0.5866464130231179,43.34213828900829,None,,,,,,,,,,,,,,,9,001,2021_Dec_01_1522,Project_RL,2021.2.3,None,
GIRL,word,left,,,,0,7,7,0,,,,,,,,,,,43.95391423400724,44.96515358699253,44.95514357398497,None,right,0.5017425520345569,44.95514357398497,None,,,,,,,,,,,,,,,9,001,2021_Dec_01_1522,Project_RL,2021.2.3,None,
HOME,word,left,,,,0,8,8,9,,,,,,,,,,,45.47550613898784,46.48414112901082,46.472835324006155,None,right,0.6669576779822819,46.472835324006155,None,,,,,,,,,,,,,,,9,001,2021_Dec_01_1522,Project_RL,2021.2.3,None,
STRI,nonword,right,,,,0,9,9,13,,,,,,,,,,,47.156301107024774,48.168564563035034,48.159256704035215,None,left,0.6364926059613936,48.159256704035215,None,,,,,,,,,,,,,,,9,001,2021_Dec_01_1522,Project_RL,2021.2.3,None,
TRFIC,nonword,right,,,,0,10,10,17,,,,,,,,,,,48.82054375199368,49.82962321199011,49.81803049298469,None,left,0.6936652970034629,49.81803049298469,None,,,,,,,,,,,,,,,9,001,2021_Dec_01_1522,Project_RL,2021.2.3,None,
DATA,word,left,,,,0,11,11,6,,,,,,,,,,,50.534291865013074,51.53776887699496,51.53776887699496,None,right,0.5968409819761291,51.53776887699496,None,,,,,,,,,,,,,,,9,001,2021_Dec_01_1522,Project_RL,2021.2.3,None,
PYSK,nonword,right,,,,0,12,12,14,,,,,,,,,,,52.163763338990975,53.16566454002168,53.155611909984145,None,left,0.5100963110453449,53.155611909984145,None,,,,,,,,,,,,,,,9,001,2021_Dec_01_1522,Project_RL,2021.2.3,None,
DRIN,nonword,right,,,,0,13,13,15,,,,,,,,,,,53.69122725800844,54.69654833798995,54.68464743101504,None,left,0.720981324033346,54.68464743101504,None,,,,,,,,,,,,,,,9,001,2021_Dec_01_1522,Project_RL,2021.2.3,None,
CAFO,nonword,right,,,,0,14,14,16,,,,,,,,,,,55.459087523981,56.46502474299632,56.44182016700506,None,left,0.5776093399617821,56.44182016700506,None,,,,,,,,,,,,,,,9,001,2021_Dec_01_1522,Project_RL,2021.2.3,None,
PLANT,word,left,,,,0,15,15,1,,,,,,,,,,,57.038235482992604,58.04623867000919,58.03524318401469,None,right,0.7832518729846925,58.03524318401469,None,,,,,,,,,,,,,,,9,001,2021_Dec_01_1522,Project_RL,2021.2.3,None,
POKV,nonword,right,,,,0,16,16,10,,,,,,,,,,,58.83769168501021,59.85081021703081,59.83947789698141,None,left,0.6000232410151511,59.83947789698141,None,,,,,,,,,,,,,,,9,001,2021_Dec_01_1522,Project_RL,2021.2.3,None,
CAFE,word,left,,,,0,17,17,5,,,,,,,,,,,60.46310516598169,61.4673037250177,61.456039476033766,None,right,0.7203039440209977,61.456039476033766,None,,,,,,,,,,,,,,,9,001,2021_Dec_01_1522,Project_RL,2021.2.3,None,
XLFE,nonword,right,,,,0,18,18,11,,,,,,,,,,,62.199345241999254,63.203205523022916,63.203205523022916,None,left,0.5700205219909549,63.203205523022916,None,,,,,,,,,,,,,,,9,001,2021_Dec_01_1522,Project_RL,2021.2.3,None,
FRIND,nonword,right,,,,0,19,19,19,,,,,,,,,,,63.790980442019645,64.80172555503668,64.79178127500927,None,left,0.4758596789906733,64.79178127500927,None,,,,,,,,,,,,,,,9,001,2021_Dec_01_1522,Project_RL,2021.2.3,None,
,,,SHOW STRI ,nonword,right,,,,,0,0,0,13,,,,,,,,,,,,,,,65.30150133202551,66.30862118699588,66.30862118699588,None,left,1.301574369019363,66.30862118699588,None,,,,,,,9,001,2021_Dec_01_1522,Project_RL,2021.2.3,None,
,,,GIRL CURL,word,left,,,,,0,1,1,0,,,,,,,,,,,,,,,67.63597557100002,68.65904889500234,68.64213726198068,None,left,0.637124233006034,68.64213726198068,None,,,,,,,9,001,2021_Dec_01_1522,Project_RL,2021.2.3,None,
,,,PYSK STAR,nonword,right,,,,,0,2,2,14,,,,,,,,,,,,,,,69.29661700001452,70.30222127301386,70.29213041003095,None,left,0.6629884109715931,70.29213041003095,None,,,,,,,9,001,2021_Dec_01_1522,Project_RL,2021.2.3,None,
,,,DANCE CAFO,nonword,right,,,,,0,3,3,17,,,,,,,,,,,,,,,70.97894842602545,71.98517859401181,71.97341716499068,None,left,1.2056781150167808,71.97341716499068,None,,,,,,,9,001,2021_Dec_01_1522,Project_RL,2021.2.3,None,
,,,HOME DECOR,word,left,,,,,0,4,4,9,,,,,,,,,,,,,,,73.19869331101654,74.20905880403006,74.19463582901517,None,left,0.577526665001642,74.19463582901517,None,,,,,,,9,001,2021_Dec_01_1522,Project_RL,2021.2.3,None,
,,,POKV GAME,nonword,right,,,,,0,5,5,10,,,,,,,,,,,,,,,74.79039526398992,75.79663135902956,75.78466404299252,None,left,1.0082399260136299,75.78466404299252,None,,,,,,,9,001,2021_Dec_01_1522,Project_RL,2021.2.3,None,
,,,BOAT SEAT,word,left,,,,,0,6,6,8,,,,,,,,,,,,,,,76.81496206001611,77.82680174103007,77.81332830101019,None,right,1.4675757770310156,77.81332830101019,None,,,,,,,9,001,2021_Dec_01_1522,Project_RL,2021.2.3,None,
,,,BONE CELL,word,left,,,,,0,7,7,2,,,,,,,,,,,,,,,79.30712365801446,80.31960326898843,80.30828181799734,None,right,1.5405504180234857,80.30828181799734,None,,,,,,,9,001,2021_Dec_01_1522,Project_RL,2021.2.3,None,
,,,KAFF DRINK,nonword,right,,,,,0,8,8,12,,,,,,,,,,,,,,,81.86751891102176,82.87719322403427,82.86367970902938,None,left,0.6473577450378798,82.86367970902938,None,,,,,,,9,001,2021_Dec_01_1522,Project_RL,2021.2.3,None,
,,,MOVIE TETRE,nonword,right,,,,,0,9,9,18,,,,,,,,,,,,,,,83.5448260330013,84.55262782599311,84.54108604602516,None,right,1.2986386860138737,84.54108604602516,None,,,,,,,9,001,2021_Dec_01_1522,Project_RL,2021.2.3,None,
,,,CAFE SHOP,word,left,,,,,0,10,10,5,,,,,,,,,,,,,,,85.87008866103133,86.87915062002139,86.8676924110041,None,left,1.4229171040351503,86.8676924110041,None,,,,,,,9,001,2021_Dec_01_1522,Project_RL,2021.2.3,None,
,,,TRFI OCEAN,nonword,right,,,,,0,11,11,19,,,,,,,,,,,,,,,88.31264742399799,89.32521403301507,89.31276577099925,None,left,0.9928191460203379,89.31276577099925,None,,,,,,,9,001,2021_Dec_01_1522,Project_RL,2021.2.3,None,
,,,HOLE BALL,word,left,,,,,0,12,12,7,,,,,,,,,,,,,,,90.33119345299201,91.34536497900262,91.33354902698193,None,left,0.6268936039996333,91.33354902698193,None,,,,,,,9,001,2021_Dec_01_1522,Project_RL,2021.2.3,None,
,,,DRIN GOLF,nonword,right,,,,,0,13,13,15,,,,,,,,,,,,,,,91.98612820799462,92.99529558798531,92.98257201199885,None,left,0.8030741980182938,92.98257201199885,None,,,,,,,9,001,2021_Dec_01_1522,Project_RL,2021.2.3,None,
,,,SEAT FOOD,word,left,,,,,0,14,14,4,,,,,,,,,,,,,,,93.80762498598779,94.82498510903679,94.82498510903679,None,left,0.7412159600062296,94.82498510903679,None,,,,,,,9,001,2021_Dec_01_1522,Project_RL,2021.2.3,None,
,,,PLANT TREE,word,left,,,,,0,15,15,1,,,,,,,,,,,,,,,95.59188053599792,96.60478715703357,96.59258685202803,None,right,0.7746664909645915,96.59258685202803,None,,,,,,,9,001,2021_Dec_01_1522,Project_RL,2021.2.3,None,
,,,DUST GLIR,nonword,right,,,,,0,16,16,16,,,,,,,,,,,,,,,97.3902520359843,98.40145253099035,98.38986079598544,None,right,1.2934841369860806,98.38986079598544,None,,,,,,,9,001,2021_Dec_01_1522,Project_RL,2021.2.3,None,
,,,DATA TEXT,word,left,,,,,0,17,17,6,,,,,,,,,,,,,,,99.70269596303115,100.71560977201443,100.70553122501587,None,right,1.0877502450020984,100.70553122501587,None,,,,,,,9,001,2021_Dec_01_1522,Project_RL,2021.2.3,None,
,,,NIGHT WORF,nonword,right,,,,,0,18,18,11,,,,,,,,,,,,,,,101.81393584498437,102.82623313600197,102.81371064402629,None,left,1.680468339996878,102.81371064402629,None,,,,,,,9,001,2021_Dec_01_1522,Project_RL,2021.2.3,None,
,,,AREA CANDLE,word,left,,,,,0,19,19,3,,,,,,,,,,,,,,,104.51071536098607,105.52510586002609,105.50995089503704,None,left,1.057077489036601,105.50995089503704,None,,,,,,,9,001,2021_Dec_01_1522,Project_RL,2021.2.3,None,
,,,,,,,,,,,,,,,,,,,,,,,,,,,,,,,,,,,,106.5876807430177,None,space,3.5383025759947486,106.5876807430177,None,9,001,2021_Dec_01_1522,Project_RL,2021.2.3,None,
